STUDYID,USUBJID,DOMAIN,AETERM,AESTDTC,AEENDTC,AESEV,AEREL,AESER,AESTDY
ABC123,ABC123-001,AE,Headache,2024-01-12,,MODERATE,POSSIBLE,N,1464
ABC123,ABC123-002,AE,Nausea,,,MILD,UNRELATED,N,
ABC123,ABC123-003,AE,Vomiting,2024-01-25,2024-01-25,SEVERE,PROBABLE,Y,25
ABC123,ABC123-004,AE,Dizziness,2024-01-14,2024-01-14,MILD,RELATED,N,
ABC123,ABC123-005,AE,Headache,,2024-01-27,MILD,UNRELATED,N,
