Sex,STUDYID,DOMAIN,USUBJID,SUBJID,RFSTDTC,RFENDTC,AGE
F,ABC123,DM,ABC123-001,1,1/10/2024,3/5/2024,54
M,ABC123,DM,ABC123-002,2,1/12/2024,,61
F,ABC123,DM,ABC123-003,3,1/15/2024,2/20/2024,48
M,ABC123,DM,ABC123-004,4,1/7/2024,3/20/2024,40
F,ABC123,DM,ABC123-005,5,1/16/2024,3/13/2024,45
