
  Obs  STUDYID  DOMAIN     USUBJID  SUBJID     RFSTDTC     RFENDTC  SEX  AGE
-----  -------  ------  ----------  ------  ----------  ----------  ---  ---
    1  ABC123   DM      ABC123-001  001     2084-01-11  2084-03-06  F     54
    2  ABC123   DM      ABC123-002  002     2084-01-13              M     61
    3  ABC123   DM      ABC123-003  003     2084-01-16  2084-02-21  F     48
    4  ABC123   DM      ABC123-004  004     2084-01-08  2084-03-21  M     40
    5  ABC123   DM      ABC123-005  005     2084-01-17  2084-03-14  F     45


